<?xml version="1.0" encoding="UTF-8"?>
<Bundle>
  <id value="15792624-5f41-4e1b-89cd-99bb6d64f628"/>
  <meta>
    <lastUpdated value="2020-05-31T19:18:49.635+00:00"/>
  </meta>
  <type value="searchset"/>
  <link>
    <relation value="self"/>
    <url value="http://hapi.fhir.org/baseR4?_getpages=15792624-5f41-4e1b-89cd-99bb6d64f628&amp;_getpagesoffset=1100&amp;_count=20&amp;_format=xml&amp;_pretty=true&amp;_bundletype=searchset"/>
  </link>
  <link>
    <relation value="next"/>
    <url value="http://hapi.fhir.org/baseR4?_getpages=15792624-5f41-4e1b-89cd-99bb6d64f628&amp;_getpagesoffset=1120&amp;_count=20&amp;_format=xml&amp;_pretty=true&amp;_bundletype=searchset"/>
  </link>
  <link>
    <relation value="previous"/>
    <url value="http://hapi.fhir.org/baseR4?_getpages=15792624-5f41-4e1b-89cd-99bb6d64f628&amp;_getpagesoffset=1080&amp;_count=20&amp;_format=xml&amp;_pretty=true&amp;_bundletype=searchset"/>
  </link>
  <entry>
    <fullUrl value="http://hapi.fhir.org/baseR4/MedicationStatement/1138019"/>
    <resource>
      <MedicationStatement>
        <id value="1138019"/>
        <meta>
          <versionId value="1"/>
          <lastUpdated value="2020-04-28T13:50:25.915+00:00"/>
          <source value="#3mJSa56NnFGGUoRt"/>
        </meta>
        <text>
          <status value="generated"/>
          <div>naproxen 500mg twice daily</div>
        </text>
        <status value="active"/>
        <medicationCodeableConcept>
          <coding>
            <system value="http://snomed.info/ct"/>
            <code value="329839005"/>
            <display value="naproxen 500mg e/c tablet"/>
          </coding>
          <text value="naproxen 500mg e/c tablet"/>
        </medicationCodeableConcept>
        <subject>
          <reference value="Patient/1137955"/>
        </subject>
        <dosage>
          <text value="1 tab twice daily"/>
          <timing>
            <repeat>
              <frequency value="2"/>
              <period value="1"/>
              <periodUnit value="d"/>
            </repeat>
          </timing>
        </dosage>
      </MedicationStatement>
    </resource>
    <search>
      <mode value="match"/>
    </search>
  </entry>
  <entry>
    <fullUrl value="http://hapi.fhir.org/baseR4/MedicationStatement/1138018"/>
    <resource>
      <MedicationStatement>
        <id value="1138018"/>
        <meta>
          <versionId value="1"/>
          <lastUpdated value="2020-04-28T13:50:25.915+00:00"/>
          <source value="#3mJSa56NnFGGUoRt"/>
        </meta>
        <text>
          <status value="generated"/>
          <div>metformin 1000mg twice daily</div>
        </text>
        <status value="active"/>
        <medicationCodeableConcept>
          <coding>
            <system value="http://snomed.info/ct"/>
            <code value="411533003"/>
            <display value="metformin 1000mg"/>
          </coding>
          <text value="metformin 1000mg"/>
        </medicationCodeableConcept>
        <subject>
          <reference value="Patient/1137955"/>
        </subject>
        <dosage>
          <text value="1 tab twice daily"/>
          <timing>
            <repeat>
              <frequency value="2"/>
              <period value="1"/>
              <periodUnit value="d"/>
            </repeat>
          </timing>
        </dosage>
      </MedicationStatement>
    </resource>
    <search>
      <mode value="match"/>
    </search>
  </entry>
  <entry>
    <fullUrl value="http://hapi.fhir.org/baseR4/MedicationStatement/1137786"/>
    <resource>
      <MedicationStatement>
        <id value="1137786"/>
        <meta>
          <versionId value="1"/>
          <lastUpdated value="2020-04-28T05:25:42.136+00:00"/>
          <source value="#BrOEeRA8mhoBDjzS"/>
        </meta>
        <text>
          <status value="generated"/>
          <div>prednisone 20mg 2 tabs/day</div>
        </text>
        <status value="active"/>
        <medicationCodeableConcept>
          <coding>
            <system value="http://snomed.info/ct"/>
            <code value="325456002"/>
            <display value="prednisone 20mg"/>
          </coding>
          <text value="prednisone 20mg"/>
        </medicationCodeableConcept>
        <subject>
          <reference value="Patient/1137720"/>
        </subject>
        <dosage>
          <text value="2 tabs once daily"/>
          <timing>
            <repeat>
              <frequency value="1"/>
              <period value="1"/>
              <periodUnit value="d"/>
            </repeat>
          </timing>
          <asNeededBoolean value="true"/>
        </dosage>
      </MedicationStatement>
    </resource>
    <search>
      <mode value="match"/>
    </search>
  </entry>
  <entry>
    <fullUrl value="http://hapi.fhir.org/baseR4/MedicationStatement/1137525"/>
    <resource>
      <MedicationStatement>
        <id value="1137525"/>
        <meta>
          <versionId value="2"/>
          <lastUpdated value="2020-04-27T09:34:56.196+00:00"/>
          <source value="#NTtaU5oy1rKJS9wT"/>
        </meta>
        <status value="active"/>
        <medicationReference>
          <reference value="Patient/example"/>
        </medicationReference>
        <subject>
          <reference value="Patient/example"/>
        </subject>
      </MedicationStatement>
    </resource>
    <search>
      <mode value="match"/>
    </search>
  </entry>
  <entry>
    <fullUrl value="http://hapi.fhir.org/baseR4/MedicationStatement/1137524"/>
    <resource>
      <MedicationStatement>
        <id value="1137524"/>
        <meta>
          <versionId value="1"/>
          <lastUpdated value="2020-04-27T09:27:49.036+00:00"/>
          <source value="#NDHOgQmzWlQpboiF"/>
        </meta>
        <status value="completed"/>
        <medicationReference>
          <reference value="Patient/example"/>
        </medicationReference>
        <subject>
          <reference value="Patient/example"/>
        </subject>
      </MedicationStatement>
    </resource>
    <search>
      <mode value="match"/>
    </search>
  </entry>
  <entry>
    <fullUrl value="http://hapi.fhir.org/baseR4/MedicationStatement/1097742"/>
    <resource>
      <MedicationStatement>
        <id value="1097742"/>
        <meta>
          <versionId value="1"/>
          <lastUpdated value="2020-04-13T08:49:01.625+00:00"/>
          <source value="#BipuheRTKGGgQHmL"/>
        </meta>
        <status value="not-taken"/>
        <medicationReference>
          <reference value="Patient/example"/>
        </medicationReference>
        <subject>
          <reference value="Patient/example"/>
        </subject>
      </MedicationStatement>
    </resource>
    <search>
      <mode value="match"/>
    </search>
  </entry>
  <entry>
    <fullUrl value="http://hapi.fhir.org/baseR4/MedicationStatement/1097741"/>
    <resource>
      <MedicationStatement>
        <id value="1097741"/>
        <meta>
          <versionId value="1"/>
          <lastUpdated value="2020-04-13T08:48:53.939+00:00"/>
          <source value="#tFkj63k5JdM4Pc2Q"/>
        </meta>
        <identifier>
          <use value="official"/>
          <system value="http://www.bmc.nl/portal/medstatements"/>
          <value value="12345689"/>
        </identifier>
        <status value="stopped"/>
        <category>
          <coding>
            <system value="http://terminology.hl7.org/CodeSystem/medication-statement-category"/>
            <code value="patientspecified"/>
            <display value="Patient Specified"/>
          </coding>
        </category>
        <medicationReference>
          <reference value="Patient/example"/>
        </medicationReference>
        <subject>
          <reference value="Patient/example"/>
          <display value="Donald Duck"/>
        </subject>
        <dateAsserted value="2015-02-22"/>
        <informationSource>
          <reference value="Patient/example"/>
          <display value="Donald Duck"/>
        </informationSource>
        <derivedFrom>
          <reference value="Patient/example"/>
        </derivedFrom>
        <note>
          <text value="Patient indicates they miss the occasional dose"/>
        </note>
        <dosage>
          <sequence value="1"/>
          <text value="1-2 tablets once daily at bedtime as needed for restless legs"/>
          <timing>
            <repeat>
              <frequency value="1"/>
            </repeat>
          </timing>
          <doseAndRate>
            <type>
              <coding>
                <system value="http://terminology.hl7.org/CodeSystem/dose-rate-type"/>
                <code value="ordered"/>
                <display value="Ordered"/>
              </coding>
            </type>
            <doseRange>
              <low>
                <value value="1.0"/>
                <unit value="TAB"/>
                <system value="http://terminology.hl7.org/CodeSystem/v3-orderableDrugForm"/>
                <code value="TAB"/>
              </low>
              <high>
                <value value="2.0"/>
                <unit value="TAB"/>
                <system value="http://terminology.hl7.org/CodeSystem/v3-orderableDrugForm"/>
                <code value="TAB"/>
              </high>
            </doseRange>
          </doseAndRate>
        </dosage>
      </MedicationStatement>
    </resource>
    <search>
      <mode value="match"/>
    </search>
  </entry>
  <entry>
    <fullUrl value="http://hapi.fhir.org/baseR4/MedicationStatement/1097735"/>
    <resource>
      <MedicationStatement>
        <id value="1097735"/>
        <meta>
          <versionId value="1"/>
          <lastUpdated value="2020-04-13T08:20:14.389+00:00"/>
          <source value="#2CiEYw0Qx0qgC5Lw"/>
        </meta>
        <identifier>
          <use value="official"/>
          <system value="http://www.bmc.nl/portal/medstatements"/>
          <value value="12345689"/>
        </identifier>
        <status value="stopped"/>
        <category>
          <coding>
            <system value="http://terminology.hl7.org/CodeSystem/medication-statement-category"/>
            <code value="patientspecified"/>
            <display value="Patient Specified"/>
          </coding>
        </category>
        <medicationReference>
          <reference value="Patient/example"/>
        </medicationReference>
        <subject>
          <reference value="Patient/example"/>
          <display value="Donald Duck"/>
        </subject>
        <dateAsserted value="2015-02-22"/>
        <informationSource>
          <reference value="Patient/example"/>
          <display value="Donald Duck"/>
        </informationSource>
        <derivedFrom>
          <reference value="Patient/example"/>
        </derivedFrom>
        <note>
          <text value="Patient indicates they miss the occasional dose"/>
        </note>
        <dosage>
          <sequence value="1"/>
          <text value="1-2 tablets once daily at bedtime as needed for restless legs"/>
          <timing>
            <repeat>
              <frequency value="1"/>
            </repeat>
          </timing>
          <doseAndRate>
            <type>
              <coding>
                <system value="http://terminology.hl7.org/CodeSystem/dose-rate-type"/>
                <code value="ordered"/>
                <display value="Ordered"/>
              </coding>
            </type>
            <doseRange>
              <low>
                <value value="1.0"/>
                <unit value="TAB"/>
                <system value="http://terminology.hl7.org/CodeSystem/v3-orderableDrugForm"/>
                <code value="TAB"/>
              </low>
              <high>
                <value value="2.0"/>
                <unit value="TAB"/>
                <system value="http://terminology.hl7.org/CodeSystem/v3-orderableDrugForm"/>
                <code value="TAB"/>
              </high>
            </doseRange>
          </doseAndRate>
        </dosage>
      </MedicationStatement>
    </resource>
    <search>
      <mode value="match"/>
    </search>
  </entry>
  <entry>
    <fullUrl value="http://hapi.fhir.org/baseR4/MedicationStatement/1097155"/>
    <resource>
      <MedicationStatement>
        <id value="1097155"/>
        <meta>
          <versionId value="1"/>
          <lastUpdated value="2020-04-09T11:10:13.045+00:00"/>
          <source value="#1MjppdX0P4TWEvBG"/>
        </meta>
        <identifier>
          <use value="official"/>
          <system value="http://www.bmc.nl/portal/medstatements"/>
          <value value="12345689"/>
        </identifier>
        <status value="stopped"/>
        <category>
          <coding>
            <system value="http://terminology.hl7.org/CodeSystem/medication-statement-category"/>
            <code value="patientspecified"/>
            <display value="Patient Specified"/>
          </coding>
        </category>
        <medicationReference>
          <reference value="Patient/example"/>
        </medicationReference>
        <subject>
          <reference value="Patient/example"/>
          <display value="Donald Duck"/>
        </subject>
        <dateAsserted value="2015-02-22"/>
        <informationSource>
          <reference value="Patient/example"/>
          <display value="Donald Duck"/>
        </informationSource>
        <derivedFrom>
          <reference value="Patient/example"/>
        </derivedFrom>
        <note>
          <text value="Patient indicates they miss the occasional dose"/>
        </note>
        <dosage>
          <sequence value="1"/>
          <text value="1-2 tablets once daily at bedtime as needed for restless legs"/>
          <timing>
            <repeat>
              <frequency value="1"/>
            </repeat>
          </timing>
          <doseAndRate>
            <type>
              <coding>
                <system value="http://terminology.hl7.org/CodeSystem/dose-rate-type"/>
                <code value="ordered"/>
                <display value="Ordered"/>
              </coding>
            </type>
            <doseRange>
              <low>
                <value value="1.0"/>
                <unit value="TAB"/>
                <system value="http://terminology.hl7.org/CodeSystem/v3-orderableDrugForm"/>
                <code value="TAB"/>
              </low>
              <high>
                <value value="2.0"/>
                <unit value="TAB"/>
                <system value="http://terminology.hl7.org/CodeSystem/v3-orderableDrugForm"/>
                <code value="TAB"/>
              </high>
            </doseRange>
          </doseAndRate>
        </dosage>
      </MedicationStatement>
    </resource>
    <search>
      <mode value="match"/>
    </search>
  </entry>
  <entry>
    <fullUrl value="http://hapi.fhir.org/baseR4/MedicationStatement/1097151"/>
    <resource>
      <MedicationStatement>
        <id value="1097151"/>
        <meta>
          <versionId value="1"/>
          <lastUpdated value="2020-04-09T10:16:49.160+00:00"/>
          <source value="#Co3Kni7090603WmJ"/>
        </meta>
        <status value="active"/>
        <statusReason>
          <coding>
            <system value="http://snomed.info/sct"/>
            <code value="166643006"/>
            <display value="Heart enzymes abnormal"/>
          </coding>
        </statusReason>
        <medicationReference>
          <reference value="MedicationRequest/1097150"/>
        </medicationReference>
        <subject>
          <reference value="Patient/1096151"/>
        </subject>
        <effectiveDateTime value="2020-01-23"/>
        <dateAsserted value="2019-02-22"/>
        <informationSource>
          <reference value="Patient/1096151"/>
        </informationSource>
        <note>
          <text value="Patient cannot take acetaminophen as per Dr instructions"/>
        </note>
        <dosage>
          <text value="one tablet one time daily"/>
          <timing>
            <repeat>
              <frequency value="1"/>
              <period value="1"/>
              <periodUnit value="d"/>
            </repeat>
          </timing>
          <route>
            <coding>
              <system value="http://snomed.info/sct"/>
              <code value="260548002"/>
              <display value="Oral"/>
            </coding>
          </route>
        </dosage>
      </MedicationStatement>
    </resource>
    <search>
      <mode value="match"/>
    </search>
  </entry>
  <entry>
    <fullUrl value="http://hapi.fhir.org/baseR4/MedicationStatement/1095771"/>
    <resource>
      <MedicationStatement>
        <id value="1095771"/>
        <meta>
          <versionId value="1"/>
          <lastUpdated value="2020-04-07T12:01:51.225+00:00"/>
          <source value="#aQIlheRc2GKJhvlc"/>
        </meta>
        <identifier>
          <use value="official"/>
          <system value="http://www.bmc.nl/portal/medstatements"/>
          <value value="12345689"/>
        </identifier>
        <status value="stopped"/>
        <category>
          <coding>
            <system value="http://terminology.hl7.org/CodeSystem/medication-statement-category"/>
            <code value="patientspecified"/>
            <display value="Patient Specified"/>
          </coding>
        </category>
        <medicationReference>
          <reference value="Patient/example"/>
        </medicationReference>
        <subject>
          <reference value="Patient/example"/>
          <display value="Donald Duck"/>
        </subject>
        <dateAsserted value="2015-02-22"/>
        <informationSource>
          <reference value="Patient/example"/>
          <display value="Donald Duck"/>
        </informationSource>
        <derivedFrom>
          <reference value="Patient/example"/>
        </derivedFrom>
        <note>
          <text value="Patient indicates they miss the occasional dose"/>
        </note>
        <dosage>
          <sequence value="1"/>
          <text value="1-2 tablets once daily at bedtime as needed for restless legs"/>
          <timing>
            <repeat>
              <frequency value="1"/>
            </repeat>
          </timing>
          <doseAndRate>
            <type>
              <coding>
                <system value="http://terminology.hl7.org/CodeSystem/dose-rate-type"/>
                <code value="ordered"/>
                <display value="Ordered"/>
              </coding>
            </type>
            <doseRange>
              <low>
                <value value="1.0"/>
                <unit value="TAB"/>
                <system value="http://terminology.hl7.org/CodeSystem/v3-orderableDrugForm"/>
                <code value="TAB"/>
              </low>
              <high>
                <value value="2.0"/>
                <unit value="TAB"/>
                <system value="http://terminology.hl7.org/CodeSystem/v3-orderableDrugForm"/>
                <code value="TAB"/>
              </high>
            </doseRange>
          </doseAndRate>
        </dosage>
      </MedicationStatement>
    </resource>
    <search>
      <mode value="match"/>
    </search>
  </entry>
  <entry>
    <fullUrl value="http://hapi.fhir.org/baseR4/MedicationStatement/1095736"/>
    <resource>
      <MedicationStatement>
        <id value="1095736"/>
        <meta>
          <versionId value="1"/>
          <lastUpdated value="2020-04-07T07:32:08.260+00:00"/>
          <source value="#j9hOZ1gK3jF0a5kC"/>
        </meta>
        <identifier>
          <use value="official"/>
          <system value="http://www.bmc.nl/portal/medstatements"/>
          <value value="12345689"/>
        </identifier>
        <status value="completed"/>
        <category>
          <coding>
            <system value="http://terminology.hl7.org/CodeSystem/medication-statement-category"/>
            <code value="inpatient"/>
            <display value="Inpatient"/>
          </coding>
        </category>
        <medicationReference>
          <reference value="Patient/example"/>
        </medicationReference>
        <subject>
          <reference value="Patient/example"/>
          <display value="Donald Duck"/>
        </subject>
        <dateAsserted value="2015-02-22"/>
        <informationSource>
          <reference value="Patient/example"/>
          <display value="Donald Duck"/>
        </informationSource>
        <derivedFrom>
          <reference value="Patient/example"/>
        </derivedFrom>
        <note>
          <text value="Patient indicates they miss the occasional dose"/>
        </note>
        <dosage>
          <sequence value="1"/>
          <text value="1-2 tablets once daily at bedtime as needed for restless legs"/>
          <timing>
            <repeat>
              <frequency value="1"/>
            </repeat>
          </timing>
          <doseAndRate>
            <type>
              <coding>
                <system value="http://terminology.hl7.org/CodeSystem/dose-rate-type"/>
                <code value="ordered"/>
                <display value="Ordered"/>
              </coding>
            </type>
            <doseRange>
              <low>
                <value value="1.0"/>
                <unit value="TAB"/>
                <system value="http://terminology.hl7.org/CodeSystem/v3-orderableDrugForm"/>
                <code value="TAB"/>
              </low>
              <high>
                <value value="2.0"/>
                <unit value="TAB"/>
                <system value="http://terminology.hl7.org/CodeSystem/v3-orderableDrugForm"/>
                <code value="TAB"/>
              </high>
            </doseRange>
          </doseAndRate>
        </dosage>
      </MedicationStatement>
    </resource>
    <search>
      <mode value="match"/>
    </search>
  </entry>
  <entry>
    <fullUrl value="http://hapi.fhir.org/baseR4/MedicationStatement/1094945"/>
    <resource>
      <MedicationStatement>
        <id value="1094945"/>
        <meta>
          <versionId value="1"/>
          <lastUpdated value="2020-04-06T19:37:59.527+00:00"/>
          <source value="#iNdmdXrkTVUnZOGi"/>
        </meta>
        <identifier>
          <use value="official"/>
          <system value="http://www.bmc.nl/portal/medstatements"/>
          <value value="12345689"/>
        </identifier>
        <status value="completed"/>
        <category>
          <coding>
            <system value="http://terminology.hl7.org/CodeSystem/medication-statement-category"/>
            <code value="inpatient"/>
            <display value="Inpatient"/>
          </coding>
        </category>
        <medicationReference>
          <reference value="Patient/example"/>
        </medicationReference>
        <subject>
          <reference value="Patient/example"/>
          <display value="Donald Duck"/>
        </subject>
        <dateAsserted value="2015-02-22"/>
        <informationSource>
          <reference value="Patient/example"/>
          <display value="Donald Duck"/>
        </informationSource>
        <derivedFrom>
          <reference value="Patient/example"/>
        </derivedFrom>
        <note>
          <text value="Patient indicates they miss the occasional dose"/>
        </note>
        <dosage>
          <sequence value="1"/>
          <text value="1-2 tablets once daily at bedtime as needed for restless legs"/>
          <timing>
            <repeat>
              <frequency value="1"/>
            </repeat>
          </timing>
          <doseAndRate>
            <type>
              <coding>
                <system value="http://terminology.hl7.org/CodeSystem/dose-rate-type"/>
                <code value="ordered"/>
                <display value="Ordered"/>
              </coding>
            </type>
            <doseRange>
              <low>
                <value value="1.0"/>
                <unit value="TAB"/>
                <system value="http://terminology.hl7.org/CodeSystem/v3-orderableDrugForm"/>
                <code value="TAB"/>
              </low>
              <high>
                <value value="2.0"/>
                <unit value="TAB"/>
                <system value="http://terminology.hl7.org/CodeSystem/v3-orderableDrugForm"/>
                <code value="TAB"/>
              </high>
            </doseRange>
          </doseAndRate>
        </dosage>
      </MedicationStatement>
    </resource>
    <search>
      <mode value="match"/>
    </search>
  </entry>
  <entry>
    <fullUrl value="http://hapi.fhir.org/baseR4/MedicationStatement/1094536"/>
    <resource>
      <MedicationStatement>
        <id value="1094536"/>
        <meta>
          <versionId value="1"/>
          <lastUpdated value="2020-04-06T04:55:04.719+00:00"/>
          <source value="#VKHPvhFsTQyZfoDZ"/>
        </meta>
        <identifier>
          <use value="official"/>
          <system value="http://www.bmc.nl/portal/medstatements"/>
          <value value="12345689"/>
        </identifier>
        <status value="stopped"/>
        <category>
          <coding>
            <system value="http://terminology.hl7.org/CodeSystem/medication-statement-category"/>
            <code value="patientspified"/>
            <display value="Patient Specified"/>
          </coding>
        </category>
        <medicationReference>
          <reference value="Patient/example"/>
        </medicationReference>
        <subject>
          <reference value="Patient/example"/>
          <display value="Donald Duck"/>
        </subject>
        <dateAsserted value="2015-02-22"/>
        <informationSource>
          <reference value="Patient/example"/>
          <display value="Donald Duck"/>
        </informationSource>
        <derivedFrom>
          <reference value="Patient/example"/>
        </derivedFrom>
        <note>
          <text value="Patient indicates they miss the occasional dose"/>
        </note>
        <dosage>
          <sequence value="1"/>
          <text value="1-2 tablets once daily at bedtime as needed for restless legs"/>
          <timing>
            <repeat>
              <frequency value="1"/>
            </repeat>
          </timing>
          <doseAndRate>
            <type>
              <coding>
                <system value="http://terminology.hl7.org/CodeSystem/dose-rate-type"/>
                <code value="ordered"/>
                <display value="Ordered"/>
              </coding>
            </type>
            <doseRange>
              <low>
                <value value="1.0"/>
                <unit value="TAB"/>
                <system value="http://terminology.hl7.org/CodeSystem/v3-orderableDrugForm"/>
                <code value="TAB"/>
              </low>
              <high>
                <value value="2.0"/>
                <unit value="TAB"/>
                <system value="http://terminology.hl7.org/CodeSystem/v3-orderableDrugForm"/>
                <code value="TAB"/>
              </high>
            </doseRange>
          </doseAndRate>
        </dosage>
      </MedicationStatement>
    </resource>
    <search>
      <mode value="match"/>
    </search>
  </entry>
  <entry>
    <fullUrl value="http://hapi.fhir.org/baseR4/MedicationStatement/1094535"/>
    <resource>
      <MedicationStatement>
        <id value="1094535"/>
        <meta>
          <versionId value="1"/>
          <lastUpdated value="2020-04-06T04:50:15.904+00:00"/>
          <source value="#q7eeO6ydkSoWbdsK"/>
        </meta>
        <identifier>
          <use value="official"/>
          <system value="http://www.bmc.nl/portal/medstatements"/>
          <value value="12345689"/>
        </identifier>
        <status value="stopped"/>
        <category>
          <coding>
            <system value="http://terminology.hl7.org/CodeSystem/medication-statement-category"/>
            <code value="patientspecified"/>
            <display value="Patient Specified"/>
          </coding>
        </category>
        <medicationReference>
          <reference value="Patient/example"/>
        </medicationReference>
        <subject>
          <reference value="Patient/example"/>
          <display value="Donald Duck"/>
        </subject>
        <dateAsserted value="2015-02-22"/>
        <informationSource>
          <reference value="Patient/example"/>
          <display value="Donald Duck"/>
        </informationSource>
        <derivedFrom>
          <reference value="Patient/example"/>
        </derivedFrom>
        <note>
          <text value="Patient indicates they miss the occasional dose"/>
        </note>
        <dosage>
          <sequence value="1"/>
          <text value="1-2 tablets once daily at bedtime as needed for restless legs"/>
          <timing>
            <repeat>
              <frequency value="1"/>
            </repeat>
          </timing>
          <doseAndRate>
            <type>
              <coding>
                <system value="http://terminology.hl7.org/CodeSystem/dose-rate-type"/>
                <code value="ordered"/>
                <display value="Ordered"/>
              </coding>
            </type>
            <doseRange>
              <low>
                <value value="1.0"/>
                <unit value="TAB"/>
                <system value="http://terminology.hl7.org/CodeSystem/v3-orderableDrugForm"/>
                <code value="TAB"/>
              </low>
              <high>
                <value value="2.0"/>
                <unit value="TAB"/>
                <system value="http://terminology.hl7.org/CodeSystem/v3-orderableDrugForm"/>
                <code value="TAB"/>
              </high>
            </doseRange>
          </doseAndRate>
        </dosage>
      </MedicationStatement>
    </resource>
    <search>
      <mode value="match"/>
    </search>
  </entry>
  <entry>
    <fullUrl value="http://hapi.fhir.org/baseR4/MedicationStatement/1094534"/>
    <resource>
      <MedicationStatement>
        <id value="1094534"/>
        <meta>
          <versionId value="1"/>
          <lastUpdated value="2020-04-06T04:47:52.157+00:00"/>
          <source value="#1aBTRCxfqVPhY17J"/>
        </meta>
        <identifier>
          <use value="official"/>
          <system value="http://www.bmc.nl/portal/medstatements"/>
          <value value="12345689"/>
        </identifier>
        <status value="intended"/>
        <category>
          <coding>
            <system value="http://terminology.hl7.org/CodeSystem/medication-statement-category"/>
            <code value="patientspecified"/>
            <display value="Patient Specified"/>
          </coding>
        </category>
        <medicationReference>
          <reference value="Patient/example"/>
        </medicationReference>
        <subject>
          <reference value="Patient/example"/>
          <display value="Donald Duck"/>
        </subject>
        <dateAsserted value="2015-02-22"/>
        <informationSource>
          <reference value="Patient/example"/>
          <display value="Donald Duck"/>
        </informationSource>
        <derivedFrom>
          <reference value="Patient/example"/>
        </derivedFrom>
        <note>
          <text value="Patient indicates they miss the occasional dose"/>
        </note>
        <dosage>
          <sequence value="1"/>
          <text value="1-2 tablets once daily at bedtime as needed for restless legs"/>
          <timing>
            <repeat>
              <frequency value="1"/>
            </repeat>
          </timing>
          <doseAndRate>
            <type>
              <coding>
                <system value="http://terminology.hl7.org/CodeSystem/dose-rate-type"/>
                <code value="ordered"/>
                <display value="Ordered"/>
              </coding>
            </type>
            <doseRange>
              <low>
                <value value="1.0"/>
                <unit value="TAB"/>
                <system value="http://terminology.hl7.org/CodeSystem/v3-orderableDrugForm"/>
                <code value="TAB"/>
              </low>
              <high>
                <value value="2.0"/>
                <unit value="TAB"/>
                <system value="http://terminology.hl7.org/CodeSystem/v3-orderableDrugForm"/>
                <code value="TAB"/>
              </high>
            </doseRange>
          </doseAndRate>
        </dosage>
      </MedicationStatement>
    </resource>
    <search>
      <mode value="match"/>
    </search>
  </entry>
  <entry>
    <fullUrl value="http://hapi.fhir.org/baseR4/MedicationStatement/1094533"/>
    <resource>
      <MedicationStatement>
        <id value="1094533"/>
        <meta>
          <versionId value="1"/>
          <lastUpdated value="2020-04-06T04:44:23.701+00:00"/>
          <source value="#HL22eqRH7cPAH6zn"/>
        </meta>
        <identifier>
          <use value="official"/>
          <system value="http://www.bmc.nl/portal/medstatements"/>
          <value value="12345689"/>
        </identifier>
        <status value="on-hold"/>
        <category>
          <coding>
            <system value="http://terminology.hl7.org/CodeSystem/medication-statement-category"/>
            <code value="community"/>
            <display value="Community"/>
          </coding>
        </category>
        <medicationReference>
          <reference value="Patient/example"/>
        </medicationReference>
        <subject>
          <reference value="Patient/example"/>
          <display value="Donald Duck"/>
        </subject>
        <dateAsserted value="2015-02-22"/>
        <informationSource>
          <reference value="Patient/example"/>
          <display value="Donald Duck"/>
        </informationSource>
        <derivedFrom>
          <reference value="Patient/example"/>
        </derivedFrom>
        <note>
          <text value="Patient indicates they miss the occasional dose"/>
        </note>
        <dosage>
          <sequence value="1"/>
          <text value="1-2 tablets once daily at bedtime as needed for restless legs"/>
          <timing>
            <repeat>
              <frequency value="1"/>
            </repeat>
          </timing>
          <doseAndRate>
            <type>
              <coding>
                <system value="http://terminology.hl7.org/CodeSystem/dose-rate-type"/>
                <code value="ordered"/>
                <display value="Ordered"/>
              </coding>
            </type>
            <doseRange>
              <low>
                <value value="1.0"/>
                <unit value="TAB"/>
                <system value="http://terminology.hl7.org/CodeSystem/v3-orderableDrugForm"/>
                <code value="TAB"/>
              </low>
              <high>
                <value value="2.0"/>
                <unit value="TAB"/>
                <system value="http://terminology.hl7.org/CodeSystem/v3-orderableDrugForm"/>
                <code value="TAB"/>
              </high>
            </doseRange>
          </doseAndRate>
        </dosage>
      </MedicationStatement>
    </resource>
    <search>
      <mode value="match"/>
    </search>
  </entry>
  <entry>
    <fullUrl value="http://hapi.fhir.org/baseR4/MedicationStatement/1094532"/>
    <resource>
      <MedicationStatement>
        <id value="1094532"/>
        <meta>
          <versionId value="1"/>
          <lastUpdated value="2020-04-06T04:36:56.538+00:00"/>
          <source value="#r8690C1hN7hbI6dX"/>
        </meta>
        <identifier>
          <use value="official"/>
          <system value="http://www.bmc.nl/portal/medstatements"/>
          <value value="12345689"/>
        </identifier>
        <status value="completed"/>
        <category>
          <coding>
            <system value="http://terminology.hl7.org/CodeSystem/medication-statement-category"/>
            <code value="inpatient"/>
            <display value="Inpatient"/>
          </coding>
        </category>
        <medicationReference>
          <reference value="Patient/example"/>
        </medicationReference>
        <subject>
          <reference value="Patient/example"/>
          <display value="Donald Duck"/>
        </subject>
        <dateAsserted value="2015-02-22"/>
        <informationSource>
          <reference value="Patient/example"/>
          <display value="Donald Duck"/>
        </informationSource>
        <derivedFrom>
          <reference value="Patient/example"/>
        </derivedFrom>
        <note>
          <text value="Patient indicates they miss the occasional dose"/>
        </note>
        <dosage>
          <sequence value="1"/>
          <text value="1-2 tablets once daily at bedtime as needed for restless legs"/>
          <timing>
            <repeat>
              <frequency value="1"/>
            </repeat>
          </timing>
          <doseAndRate>
            <type>
              <coding>
                <system value="http://terminology.hl7.org/CodeSystem/dose-rate-type"/>
                <code value="ordered"/>
                <display value="Ordered"/>
              </coding>
            </type>
            <doseRange>
              <low>
                <value value="1.0"/>
                <unit value="TAB"/>
                <system value="http://terminology.hl7.org/CodeSystem/v3-orderableDrugForm"/>
                <code value="TAB"/>
              </low>
              <high>
                <value value="2.0"/>
                <unit value="TAB"/>
                <system value="http://terminology.hl7.org/CodeSystem/v3-orderableDrugForm"/>
                <code value="TAB"/>
              </high>
            </doseRange>
          </doseAndRate>
        </dosage>
      </MedicationStatement>
    </resource>
    <search>
      <mode value="match"/>
    </search>
  </entry>
  <entry>
    <fullUrl value="http://hapi.fhir.org/baseR4/MedicationStatement/1093996"/>
    <resource>
      <MedicationStatement>
        <id value="1093996"/>
        <meta>
          <versionId value="1"/>
          <lastUpdated value="2020-04-03T10:24:33.783+00:00"/>
          <source value="#vGEwI858PC3BDncc"/>
        </meta>
        <identifier>
          <use value="official"/>
          <system value="http://www.bmc.nl/portal/medstatements"/>
          <value value="12345689"/>
        </identifier>
        <status value="active"/>
        <category>
          <coding>
            <system value="http://terminology.hl7.org/CodeSystem/medication-statement-category"/>
            <code value="inpatient"/>
            <display value="Inpatient"/>
          </coding>
        </category>
        <medicationReference>
          <reference value="Patient/example"/>
        </medicationReference>
        <subject>
          <reference value="Patient/example"/>
          <display value="Donald Duck"/>
        </subject>
        <dateAsserted value="2015-02-22"/>
        <informationSource>
          <reference value="Patient/example"/>
          <display value="Donald Duck"/>
        </informationSource>
        <derivedFrom>
          <reference value="Patient/example"/>
        </derivedFrom>
        <note>
          <text value="Patient indicates they miss the occasional dose"/>
        </note>
        <dosage>
          <sequence value="1"/>
          <text value="1-2 tablets once daily at bedtime as needed for restless legs"/>
          <timing>
            <repeat>
              <frequency value="1"/>
            </repeat>
          </timing>
          <doseAndRate>
            <type>
              <coding>
                <system value="http://terminology.hl7.org/CodeSystem/dose-rate-type"/>
                <code value="ordered"/>
                <display value="Ordered"/>
              </coding>
            </type>
            <doseRange>
              <low>
                <value value="1.0"/>
                <unit value="TAB"/>
                <system value="http://terminology.hl7.org/CodeSystem/v3-orderableDrugForm"/>
                <code value="TAB"/>
              </low>
              <high>
                <value value="2.0"/>
                <unit value="TAB"/>
                <system value="http://terminology.hl7.org/CodeSystem/v3-orderableDrugForm"/>
                <code value="TAB"/>
              </high>
            </doseRange>
          </doseAndRate>
        </dosage>
      </MedicationStatement>
    </resource>
    <search>
      <mode value="match"/>
    </search>
  </entry>
  <entry>
    <fullUrl value="http://hapi.fhir.org/baseR4/MedicationStatement/1093985"/>
    <resource>
      <MedicationStatement>
        <id value="1093985"/>
        <meta>
          <versionId value="1"/>
          <lastUpdated value="2020-04-03T09:59:47.967+00:00"/>
          <source value="#lQnXZnQSEUe3MnoF"/>
        </meta>
        <identifier>
          <use value="official"/>
          <system value="http://www.bmc.nl/portal/medstatements"/>
          <value value="12345689"/>
        </identifier>
        <status value="completed"/>
        <category>
          <coding>
            <system value="http://terminology.hl7.org/CodeSystem/medication-statement-category"/>
            <code value="inpatient"/>
            <display value="Inpatient"/>
          </coding>
        </category>
        <medicationReference>
          <reference value="Patient/example"/>
        </medicationReference>
        <subject>
          <reference value="Patient/example"/>
          <display value="Donald Duck"/>
        </subject>
        <dateAsserted value="2015-02-22"/>
        <informationSource>
          <reference value="Patient/example"/>
          <display value="Donald Duck"/>
        </informationSource>
        <derivedFrom>
          <reference value="Patient/example"/>
        </derivedFrom>
        <note>
          <text value="Patient indicates they miss the occasional dose"/>
        </note>
        <dosage>
          <sequence value="1"/>
          <text value="1-2 tablets once daily at bedtime as needed for restless legs"/>
          <timing>
            <repeat>
              <frequency value="1"/>
            </repeat>
          </timing>
          <doseAndRate>
            <type>
              <coding>
                <system value="http://terminology.hl7.org/CodeSystem/dose-rate-type"/>
                <code value="ordered"/>
                <display value="Ordered"/>
              </coding>
            </type>
            <doseRange>
              <low>
                <value value="1.0"/>
                <unit value="TAB"/>
                <system value="http://terminology.hl7.org/CodeSystem/v3-orderableDrugForm"/>
                <code value="TAB"/>
              </low>
              <high>
                <value value="2.0"/>
                <unit value="TAB"/>
                <system value="http://terminology.hl7.org/CodeSystem/v3-orderableDrugForm"/>
                <code value="TAB"/>
              </high>
            </doseRange>
          </doseAndRate>
        </dosage>
      </MedicationStatement>
    </resource>
    <search>
      <mode value="match"/>
    </search>
  </entry>
  <entry>
    <fullUrl value="http://hapi.fhir.org/baseR4/Patient/1137955"/>
    <resource>
      <Patient>
        <id value="1137955"/>
        <meta>
          <versionId value="1"/>
          <lastUpdated value="2020-04-28T13:50:20.309+00:00"/>
          <source value="#T2b8TnEHAWHhqQg7"/>
        </meta>
        <text>
          <status value="generated"/>
          <div>javier alejandris</div>
        </text>
        <identifier>
          <system value="http://clinfhir.com/fhir/NamingSystem/identifier"/>
          <value value="javier@biocom.com"/>
        </identifier>
        <name>
          <use value="official"/>
          <text value="javier alejandris"/>
          <family value="alejandris"/>
          <given value="javier"/>
        </name>
        <gender value="male"/>
        <birthDate value="1982-07-05"/>
      </Patient>
    </resource>
    <search>
      <mode value="include"/>
    </search>
  </entry>
  <entry>
    <fullUrl value="http://hapi.fhir.org/baseR4/Patient/1096151"/>
    <resource>
      <Patient>
        <id value="1096151"/>
        <meta>
          <versionId value="2"/>
          <lastUpdated value="2020-04-15T10:39:23.819+00:00"/>
          <source value="#nKguRqRd6BKl4gHp"/>
        </meta>
        <text>
          <status value="generated"/>
          <div>
            <div class="hapiHeaderText">Padwal 
                     <b>AMOL </b> 
                  </div>
            <table class="hapiPropertyTable">
              <tbody>
                <tr>
                  <td>Identifier</td>
                  <td>5911bfd0-687e-4ac9-ab37-04e8815e4f0d</td>
                </tr>
                <tr>
                  <td>Address</td>
                  <td>
                    <span>Pune </span>
                  </td>
                </tr>
                <tr>
                  <td>Date of birth</td>
                  <td>
                    <span>18 February 1960</span>
                  </td>
                </tr>
              </tbody>
            </table>
          </div>
        </text>
        <identifier>
          <type>
            <coding>
              <system value="http://hl7.org/fhir/v2/0203"/>
              <code value="MR"/>
            </coding>
          </type>
          <value value="5911bfd0-687e-4ac9-ab37-04e8815e4f0d"/>
        </identifier>
        <name>
          <family value="Amol"/>
          <given value="Padwal"/>
        </name>
        <telecom>
          <system value="email"/>
          <value value="amol.padwal@appexinnovation.com"/>
          <use value="work"/>
        </telecom>
        <telecom>
          <system value="phone"/>
          <value value="0612789638"/>
          <use value="home"/>
        </telecom>
        <telecom>
          <system value="phone"/>
          <value value="069562639"/>
          <use value="work"/>
        </telecom>
        <gender value="male"/>
        <birthDate value="1960-02-18"/>
        <address>
          <city value="Pune"/>
        </address>
        <generalPractitioner>
          <reference value="Practitioner/1096150"/>
          <display value="Guru-General Practitioner"/>
        </generalPractitioner>
        <managingOrganization>
          <reference value="Organization/1097144"/>
          <display value="PHARMACIE DU GINKGO"/>
        </managingOrganization>
      </Patient>
    </resource>
    <search>
      <mode value="include"/>
    </search>
  </entry>
  <entry>
    <fullUrl value="http://hapi.fhir.org/baseR4/Patient/1137720"/>
    <resource>
      <Patient>
        <id value="1137720"/>
        <meta>
          <versionId value="1"/>
          <lastUpdated value="2020-04-28T05:25:37.534+00:00"/>
          <source value="#yz6kLl36OOL1daq6"/>
        </meta>
        <text>
          <status value="generated"/>
          <div>Bella Davies</div>
        </text>
        <name>
          <use value="official"/>
          <text value="Bella Davies"/>
          <family value="Davies"/>
          <given value="Bella"/>
        </name>
        <gender value="female"/>
        <birthDate value="2020-04-27"/>
      </Patient>
    </resource>
    <search>
      <mode value="include"/>
    </search>
  </entry>
  <entry>
    <fullUrl value="http://hapi.fhir.org/baseR4/Patient/example"/>
    <resource>
      <Patient>
        <id value="example"/>
        <meta>
          <versionId value="19"/>
          <lastUpdated value="2020-03-18T04:55:58.137+00:00"/>
          <source value="#jQd948eABxSzPSEK"/>
        </meta>
        <text>
          <status value="generated"/>
          <div>
            <table>
              <tbody>
                <tr>
                  <td>Name</td>
                  <td>Peter James 
                              <b>Chalmers</b> ("Jim") 
                           </td>
                </tr>
                <tr>
                  <td>Address</td>
                  <td>534 Erewhon, Pleasantville, Vic, 3999</td>
                </tr>
                <tr>
                  <td>Contacts</td>
                  <td>Home: unknown. Work: (03) 5555 6473</td>
                </tr>
                <tr>
                  <td>Id</td>
                  <td>MRN: 12345 (Acme Healthcare)</td>
                </tr>
              </tbody>
            </table>
          </div>
        </text>
        <identifier>
          <use value="usual"/>
          <type>
            <coding>
              <system value="http://terminology.hl7.org/CodeSystem/v2-0203"/>
              <code value="MR"/>
            </coding>
          </type>
          <system value="urn:oid:1.2.36.146.595.217.0.1"/>
          <value value="12345"/>
          <period>
            <start value="2001-05-06"/>
          </period>
          <assigner>
            <display value="Acne Healthcare"/>
          </assigner>
        </identifier>
        <active value="true"/>
        <name>
          <use value="official"/>
          <family value="Chalmers"/>
          <given value="Peter"/>
          <given value="James"/>
        </name>
        <name>
          <use value="usual"/>
          <given value="Jim"/>
        </name>
        <name>
          <use value="maiden"/>
          <family value="Windsor"/>
          <given value="Peter"/>
          <given value="James"/>
          <period>
            <end value="2002"/>
          </period>
        </name>
        <telecom>
          <use value="home"/>
        </telecom>
        <telecom>
          <system value="phone"/>
          <value value="(03) 5555 6473"/>
          <use value="work"/>
          <rank value="1"/>
        </telecom>
        <telecom>
          <system value="phone"/>
          <value value="(03) 3410 5613"/>
          <use value="mobile"/>
          <rank value="2"/>
        </telecom>
        <telecom>
          <system value="phone"/>
          <value value="(03) 5555 8834"/>
          <use value="old"/>
          <period>
            <end value="2014"/>
          </period>
        </telecom>
        <gender value="male"/>
        <birthDate value="1974-12-25">
          <extension url="http://hl7.org/fhir/StructureDefinition/patient-birthTime">
            <valueDateTime value="1974-12-25T14:35:45-05:00"/>
          </extension>
        </birthDate>
        <deceasedBoolean value="false"/>
        <address>
          <use value="home"/>
          <type value="both"/>
          <text value="534 Erewhon St PeasantVille, Rainbow, Vic  3999"/>
          <line value="534 Erewhon St"/>
          <city value="PleasantVille"/>
          <district value="Rainbow"/>
          <state value="Vic"/>
          <postalCode value="3999"/>
          <period>
            <start value="1974-12-25"/>
          </period>
        </address>
        <contact>
          <relationship>
            <coding>
              <system value="http://terminology.hl7.org/CodeSystem/v2-0131"/>
              <code value="N"/>
            </coding>
          </relationship>
          <name>
            <family value="du March">
              <extension url="http://hl7.org/fhir/StructureDefinition/humanname-own-prefix">
                <valueString value="VV"/>
              </extension>
            </family>
            <given value="Bndicte"/>
          </name>
          <telecom>
            <system value="phone"/>
            <value value="+33 (237) 998327"/>
          </telecom>
          <address>
            <use value="home"/>
            <type value="both"/>
            <line value="534 Erewhon St"/>
            <city value="PleasantVille"/>
            <district value="Rainbow"/>
            <state value="Vic"/>
            <postalCode value="3999"/>
            <period>
              <start value="1974-12-25"/>
            </period>
          </address>
          <gender value="female"/>
          <period>
            <start value="2012"/>
          </period>
        </contact>
      </Patient>
    </resource>
    <search>
      <mode value="include"/>
    </search>
  </entry>
</Bundle>
